target_angle,correct_keys,coherence,target_pos,.thisRepN,.thisTrialN,.thisN,.thisIndex,thisRow.t,notes,RT,Response,Correct,Coherence,TargetAngle,Participant,Unnamed: 16
0,"['d', 'num_6', '6']",0.1,"(250, 0)",0,0,0,1,,,2.7364201000891626,d,1,0.1,0,lx,
240,"['z', 'num_1', '1']",0.15,"(-125.00000000000003, -216.50635094610965)",0,1,1,14,,,0.9664243999868632,z,1,0.15,240,lx,
120,"['q', 'w', 'num_7', '7']",0.15,"(-125.00000000000003, 216.50635094610965)",0,2,2,8,,,1.4859221000224352,q,1,0.15,120,lx,
120,"['q', 'w', 'num_7', '7']",0.1,"(-125.00000000000003, 216.50635094610965)",0,3,3,7,,,0.9302302999421954,c,0,0.1,120,lx,
0,"['d', 'num_6', '6']",0.15,"(250, 0)",0,4,4,2,,,0.8403109000064433,d,1,0.15,0,lx,
60,"['e', 'num_9', '9']",0.05,"(125.00000000000003, 216.50635094610965)",0,5,5,3,,,1.2392696000169965,e,1,0.05,60,lx,
240,"['z', 'num_1', '1']",0.1,"(-125.00000000000003, -216.50635094610965)",0,6,6,13,,,1.3783199999015778,z,1,0.1,240,lx,
60,"['e', 'num_9', '9']",0.1,"(125.00000000000003, 216.50635094610965)",0,7,7,4,,,0.9422887000255288,e,1,0.1,60,lx,
300,"['x', 'c', 'num_3', '3']",0.05,"(125.00000000000003, -216.50635094610965)",0,8,8,15,,,2.6308011000510305,c,1,0.05,300,lx,
180,"['a', 'num_4', '4']",0.1,"(-250, 0)",0,9,9,10,,,1.5421794999856502,a,1,0.1,180,lx,
0,"['d', 'num_6', '6']",0.05,"(250, 0)",0,10,10,0,,,3.3585155999753624,e,0,0.05,0,lx,
240,"['z', 'num_1', '1']",0.05,"(-125.00000000000003, -216.50635094610965)",0,11,11,12,,,2.457621300127357,a,0,0.05,240,lx,
300,"['x', 'c', 'num_3', '3']",0.1,"(125.00000000000003, -216.50635094610965)",0,12,12,16,,,1.55849750014022,c,1,0.1,300,lx,
180,"['a', 'num_4', '4']",0.05,"(-250, 0)",0,13,13,9,,,1.1667020998429507,a,1,0.05,180,lx,
120,"['q', 'w', 'num_7', '7']",0.05,"(-125.00000000000003, 216.50635094610965)",0,14,14,6,,,1.2816584000829607,d,0,0.05,120,lx,
180,"['a', 'num_4', '4']",0.15,"(-250, 0)",0,15,15,11,,,1.6274914999958128,a,1,0.15,180,lx,
300,"['x', 'c', 'num_3', '3']",0.15,"(125.00000000000003, -216.50635094610965)",0,16,16,17,,,0.9964741000439972,c,1,0.15,300,lx,
60,"['e', 'num_9', '9']",0.15,"(125.00000000000003, 216.50635094610965)",0,17,17,5,,,1.2208509999327362,e,1,0.15,60,lx,
0,"['d', 'num_6', '6']",0.15,"(250, 0)",1,0,18,2,,,1.0941932999994606,d,1,0.15,0,lx,
120,"['q', 'w', 'num_7', '7']",0.05,"(-125.00000000000003, 216.50635094610965)",1,1,19,6,,,2.656987299909815,q,1,0.05,120,lx,
240,"['z', 'num_1', '1']",0.1,"(-125.00000000000003, -216.50635094610965)",1,2,20,13,,,1.069969299947843,z,1,0.1,240,lx,
240,"['z', 'num_1', '1']",0.15,"(-125.00000000000003, -216.50635094610965)",1,3,21,14,,,1.0386526000220329,z,1,0.15,240,lx,
180,"['a', 'num_4', '4']",0.05,"(-250, 0)",1,4,22,9,,,0.8275350001640618,a,1,0.05,180,lx,
0,"['d', 'num_6', '6']",0.05,"(250, 0)",1,5,23,0,,,0.9275081001687796,d,1,0.05,0,lx,
300,"['x', 'c', 'num_3', '3']",0.15,"(125.00000000000003, -216.50635094610965)",1,6,24,17,,,0.924786699935794,c,1,0.15,300,lx,
240,"['z', 'num_1', '1']",0.05,"(-125.00000000000003, -216.50635094610965)",1,7,25,12,,,2.4636713000945747,a,0,0.05,240,lx,
180,"['a', 'num_4', '4']",0.15,"(-250, 0)",1,8,26,11,,,1.4568661998491734,a,1,0.15,180,lx,
60,"['e', 'num_9', '9']",0.05,"(125.00000000000003, 216.50635094610965)",1,9,27,3,,,1.03227229998447,right,0,0.05,60,lx,
60,"['e', 'num_9', '9']",0.1,"(125.00000000000003, 216.50635094610965)",1,10,28,4,,,1.039539200020954,e,1,0.1,60,lx,
120,"['q', 'w', 'num_7', '7']",0.15,"(-125.00000000000003, 216.50635094610965)",1,11,29,8,,,0.9607286998070776,q,1,0.15,120,lx,
60,"['e', 'num_9', '9']",0.15,"(125.00000000000003, 216.50635094610965)",1,12,30,5,,,1.280568600166589,e,1,0.15,60,lx,
300,"['x', 'c', 'num_3', '3']",0.05,"(125.00000000000003, -216.50635094610965)",1,13,31,15,,,1.4023577000480143,c,1,0.05,300,lx,
120,"['q', 'w', 'num_7', '7']",0.1,"(-125.00000000000003, 216.50635094610965)",1,14,32,7,,,1.2077326998114586,q,1,0.1,120,lx,
300,"['x', 'c', 'num_3', '3']",0.1,"(125.00000000000003, -216.50635094610965)",1,15,33,16,,,2.637932299869135,a,0,0.1,300,lx,
0,"['d', 'num_6', '6']",0.1,"(250, 0)",1,16,34,1,,,2.064183600014076,a,0,0.1,0,lx,
180,"['a', 'num_4', '4']",0.1,"(-250, 0)",1,17,35,10,,,2.2083054000977427,q,0,0.1,180,lx,
300,"['x', 'c', 'num_3', '3']",0.15,"(125.00000000000003, -216.50635094610965)",2,0,36,17,,,1.306338099995628,c,1,0.15,300,lx,
0,"['d', 'num_6', '6']",0.15,"(250, 0)",2,1,37,2,,,1.6173934999387711,d,1,0.15,0,lx,
240,"['z', 'num_1', '1']",0.05,"(-125.00000000000003, -216.50635094610965)",2,2,38,12,,,2.662415799917653,c,0,0.05,240,lx,
240,"['z', 'num_1', '1']",0.15,"(-125.00000000000003, -216.50635094610965)",2,3,39,14,,,1.2734165000729265,z,1,0.15,240,lx,
180,"['a', 'num_4', '4']",0.1,"(-250, 0)",2,4,40,10,,,1.7001840001903474,a,1,0.1,180,lx,
60,"['e', 'num_9', '9']",0.05,"(125.00000000000003, 216.50635094610965)",2,5,41,3,,,1.6030300999991596,e,1,0.05,60,lx,
60,"['e', 'num_9', '9']",0.1,"(125.00000000000003, 216.50635094610965)",2,6,42,4,,,2.3117277999408543,e,1,0.1,60,lx,
120,"['q', 'w', 'num_7', '7']",0.05,"(-125.00000000000003, 216.50635094610965)",2,7,43,6,,,1.0509021000470966,q,1,0.05,120,lx,
300,"['x', 'c', 'num_3', '3']",0.1,"(125.00000000000003, -216.50635094610965)",2,8,44,16,,,1.6412645999807864,c,1,0.1,300,lx,
60,"['e', 'num_9', '9']",0.15,"(125.00000000000003, 216.50635094610965)",2,9,45,5,,,1.4270878001116216,e,1,0.15,60,lx,
180,"['a', 'num_4', '4']",0.15,"(-250, 0)",2,10,46,11,,,1.487215799978003,a,1,0.15,180,lx,
240,"['z', 'num_1', '1']",0.1,"(-125.00000000000003, -216.50635094610965)",2,11,47,13,,,1.366750700166449,z,1,0.1,240,lx,
120,"['q', 'w', 'num_7', '7']",0.1,"(-125.00000000000003, 216.50635094610965)",2,12,48,7,,,1.4270618001464754,q,1,0.1,120,lx,
0,"['d', 'num_6', '6']",0.1,"(250, 0)",2,13,49,1,,,1.578608199954033,d,1,0.1,0,lx,
300,"['x', 'c', 'num_3', '3']",0.05,"(125.00000000000003, -216.50635094610965)",2,14,50,15,,,2.6517278000246733,c,1,0.05,300,lx,
0,"['d', 'num_6', '6']",0.05,"(250, 0)",2,15,51,0,,,2.402323599904776,d,1,0.05,0,lx,
180,"['a', 'num_4', '4']",0.05,"(-250, 0)",2,16,52,9,,,1.8816076999064533,a,1,0.05,180,lx,
120,"['q', 'w', 'num_7', '7']",0.15,"(-125.00000000000003, 216.50635094610965)",2,17,53,8,,,1.85128300008364,q,1,0.15,120,lx,
