target_angle,correct_keys,coherence,target_pos,.thisRepN,.thisTrialN,.thisN,.thisIndex,thisRow.t,notes,RT,Response,Correct,Coherence,TargetAngle,Participant,Unnamed: 16
60,"['e', 'num_9', '9']",0.1,"(125.00000000000003, 216.50635094610965)",0,0,0,4,,,1.2568148002028463,e,1,0.1,60,lx,
0,"['d', 'num_6', '6']",0.1,"(250, 0)",0,1,1,1,,,0.9607243000064044,d,1,0.1,0,lx,
240,"['z', 'num_1', '1']",0.05,"(-125.00000000000003, -216.50635094610965)",0,2,2,12,,,0.7966853999532759,z,1,0.05,240,lx,
300,"['x', 'c', 'num_3', '3']",0.15,"(125.00000000000003, -216.50635094610965)",0,3,3,17,,,1.232863400131464,c,1,0.15,300,lx,
240,"['z', 'num_1', '1']",0.1,"(-125.00000000000003, -216.50635094610965)",0,4,4,13,,,0.7950935999397188,z,1,0.1,240,lx,
120,"['q', 'w', 'num_7', '7']",0.15,"(-125.00000000000003, 216.50635094610965)",0,5,5,8,,,0.6939298999495804,q,1,0.15,120,lx,
180,"['a', 'num_4', '4']",0.1,"(-250, 0)",0,6,6,10,,,0.6329391999170184,a,1,0.1,180,lx,
120,"['q', 'w', 'num_7', '7']",0.05,"(-125.00000000000003, 216.50635094610965)",0,7,7,6,,,0.8632819000631571,e,0,0.05,120,lx,
120,"['q', 'w', 'num_7', '7']",0.1,"(-125.00000000000003, 216.50635094610965)",0,8,8,7,,,0.5909148999489844,q,1,0.1,120,lx,
60,"['e', 'num_9', '9']",0.05,"(125.00000000000003, 216.50635094610965)",0,9,9,3,,,2.277526099933312,q,0,0.05,60,lx,
300,"['x', 'c', 'num_3', '3']",0.05,"(125.00000000000003, -216.50635094610965)",0,10,10,15,,,0.9771698000840844,c,1,0.05,300,lx,
0,"['d', 'num_6', '6']",0.15,"(250, 0)",0,11,11,2,,,0.7304136001039296,d,1,0.15,0,lx,
180,"['a', 'num_4', '4']",0.15,"(-250, 0)",0,12,12,11,,,0.5788902998901904,a,1,0.15,180,lx,
300,"['x', 'c', 'num_3', '3']",0.1,"(125.00000000000003, -216.50635094610965)",0,13,13,16,,,1.2379473999608308,c,1,0.1,300,lx,
60,"['e', 'num_9', '9']",0.15,"(125.00000000000003, 216.50635094610965)",0,14,14,5,,,0.8834579999092966,e,1,0.15,60,lx,
180,"['a', 'num_4', '4']",0.05,"(-250, 0)",0,15,15,9,,,1.0329849000554532,a,1,0.05,180,lx,
240,"['z', 'num_1', '1']",0.15,"(-125.00000000000003, -216.50635094610965)",0,16,16,14,,,1.1114312999416145,z,1,0.15,240,lx,
0,"['d', 'num_6', '6']",0.05,"(250, 0)",0,17,17,0,,,2.214838600018993,d,1,0.05,0,lx,
300,"['x', 'c', 'num_3', '3']",0.05,"(125.00000000000003, -216.50635094610965)",1,0,18,15,,,2.255848600063473,d,0,0.05,300,lx,
120,"['q', 'w', 'num_7', '7']",0.15,"(-125.00000000000003, 216.50635094610965)",1,1,19,8,,,0.8940987999085337,q,1,0.15,120,lx,
180,"['a', 'num_4', '4']",0.15,"(-250, 0)",1,2,20,11,,,0.8693440998904407,a,1,0.15,180,lx,
180,"['a', 'num_4', '4']",0.1,"(-250, 0)",1,3,21,10,,,0.7304565999656916,a,1,0.1,180,lx,
0,"['d', 'num_6', '6']",0.15,"(250, 0)",1,4,22,2,,,0.8198826999869198,d,1,0.15,0,lx,
180,"['a', 'num_4', '4']",0.05,"(-250, 0)",1,5,23,9,,,0.7166204999666661,a,1,0.05,180,lx,
60,"['e', 'num_9', '9']",0.1,"(125.00000000000003, 216.50635094610965)",1,6,24,4,,,1.1915655999910086,e,1,0.1,60,lx,
0,"['d', 'num_6', '6']",0.1,"(250, 0)",1,7,25,1,,,0.6332485000602901,d,1,0.1,0,lx,
300,"['x', 'c', 'num_3', '3']",0.15,"(125.00000000000003, -216.50635094610965)",1,8,26,17,,,0.668186399852857,c,1,0.15,300,lx,
0,"['d', 'num_6', '6']",0.05,"(250, 0)",1,9,27,0,,,3.063233199995011,e,0,0.05,0,lx,
240,"['z', 'num_1', '1']",0.1,"(-125.00000000000003, -216.50635094610965)",1,10,28,13,,,1.2209103999193758,z,1,0.1,240,lx,
120,"['q', 'w', 'num_7', '7']",0.1,"(-125.00000000000003, 216.50635094610965)",1,11,29,7,,,0.7601752001792192,a,0,0.1,120,lx,
240,"['z', 'num_1', '1']",0.15,"(-125.00000000000003, -216.50635094610965)",1,12,30,14,,,1.124116800026968,z,1,0.15,240,lx,
60,"['e', 'num_9', '9']",0.05,"(125.00000000000003, 216.50635094610965)",1,13,31,3,,,1.5606813000049442,e,1,0.05,60,lx,
120,"['q', 'w', 'num_7', '7']",0.05,"(-125.00000000000003, 216.50635094610965)",1,14,32,6,,,1.6272897000890223,c,0,0.05,120,lx,
300,"['x', 'c', 'num_3', '3']",0.1,"(125.00000000000003, -216.50635094610965)",1,15,33,16,,,1.0330558998975905,d,0,0.1,300,lx,
240,"['z', 'num_1', '1']",0.05,"(-125.00000000000003, -216.50635094610965)",1,16,34,12,,,1.2263369001448154,z,1,0.05,240,lx,
60,"['e', 'num_9', '9']",0.15,"(125.00000000000003, 216.50635094610965)",1,17,35,5,,,0.9110002999659628,e,1,0.15,60,lx,
180,"['a', 'num_4', '4']",0.15,"(-250, 0)",2,0,36,11,,,0.7845401000231504,a,1,0.15,180,lx,
300,"['x', 'c', 'num_3', '3']",0.15,"(125.00000000000003, -216.50635094610965)",2,1,37,17,,,0.9783840000163764,c,1,0.15,300,lx,
120,"['q', 'w', 'num_7', '7']",0.05,"(-125.00000000000003, 216.50635094610965)",2,2,38,6,,,1.2334270998835564,q,1,0.05,120,lx,
240,"['z', 'num_1', '1']",0.15,"(-125.00000000000003, -216.50635094610965)",2,3,39,14,,,0.9471004998777062,z,1,0.15,240,lx,
120,"['q', 'w', 'num_7', '7']",0.1,"(-125.00000000000003, 216.50635094610965)",2,4,40,7,,,0.795630200067535,q,1,0.1,120,lx,
300,"['x', 'c', 'num_3', '3']",0.1,"(125.00000000000003, -216.50635094610965)",2,5,41,16,,,1.5912170000374315,a,0,0.1,300,lx,
300,"['x', 'c', 'num_3', '3']",0.05,"(125.00000000000003, -216.50635094610965)",2,6,42,15,,,2.0510982000269,z,0,0.05,300,lx,
0,"['d', 'num_6', '6']",0.15,"(250, 0)",2,7,43,2,,,1.401482099900022,d,1,0.15,0,lx,
180,"['a', 'num_4', '4']",0.05,"(-250, 0)",2,8,44,9,,,1.5414744999725372,a,1,0.05,180,lx,
180,"['a', 'num_4', '4']",0.1,"(-250, 0)",2,9,45,10,,,3.4572795999702066,e,0,0.1,180,lx,
240,"['z', 'num_1', '1']",0.1,"(-125.00000000000003, -216.50635094610965)",2,10,46,13,,,2.1243580000009388,z,1,0.1,240,lx,
120,"['q', 'w', 'num_7', '7']",0.15,"(-125.00000000000003, 216.50635094610965)",2,11,47,8,,,3.583193399943412,q,1,0.15,120,lx,
60,"['e', 'num_9', '9']",0.05,"(125.00000000000003, 216.50635094610965)",2,12,48,3,,,2.237353099975735,a,0,0.05,60,lx,
0,"['d', 'num_6', '6']",0.1,"(250, 0)",2,13,49,1,,,2.2875178998801857,d,1,0.1,0,lx,
60,"['e', 'num_9', '9']",0.15,"(125.00000000000003, 216.50635094610965)",2,14,50,5,,,1.099780400050804,e,1,0.15,60,lx,
240,"['z', 'num_1', '1']",0.05,"(-125.00000000000003, -216.50635094610965)",2,15,51,12,,,3.4323958999011666,c,0,0.05,240,lx,
0,"['d', 'num_6', '6']",0.05,"(250, 0)",2,16,52,0,,,1.5432971001137048,d,1,0.05,0,lx,
60,"['e', 'num_9', '9']",0.1,"(125.00000000000003, 216.50635094610965)",2,17,53,4,,,3.015265200054273,e,1,0.1,60,lx,
