target_angle,correct_keys,coherence,target_pos,.thisRepN,.thisTrialN,.thisN,.thisIndex,thisRow.t,notes,RT,Response,Correct,Coherence,TargetAngle,Participant,Unnamed: 16
120,"['q', 'w', 'num_7', '7']",0.05,"(-125.00000000000003, 216.50635094610965)",0,0,0,6,,,2.426740899914876,c,0,0.05,120,sjh,
180,"['a', 'num_4', '4']",0.05,"(-250, 0)",0,1,1,9,,,1.3787328000180423,a,1,0.05,180,sjh,
0,"['d', 'num_6', '6']",0.15,"(250, 0)",0,2,2,2,,,1.8920042000245303,d,1,0.15,0,sjh,
60,"['e', 'num_9', '9']",0.15,"(125.00000000000003, 216.50635094610965)",0,3,3,5,,,1.4937661001458764,e,1,0.15,60,sjh,
60,"['e', 'num_9', '9']",0.1,"(125.00000000000003, 216.50635094610965)",0,4,4,4,,,2.372589400038123,z,0,0.1,60,sjh,
240,"['z', 'num_1', '1']",0.15,"(-125.00000000000003, -216.50635094610965)",0,5,5,14,,,2.2998977000825107,z,1,0.15,240,sjh,
120,"['q', 'w', 'num_7', '7']",0.15,"(-125.00000000000003, 216.50635094610965)",0,6,6,8,,,1.6089218000415713,q,1,0.15,120,sjh,
300,"['x', 'c', 'num_3', '3']",0.1,"(125.00000000000003, -216.50635094610965)",0,7,7,16,,,2.478463100036606,c,1,0.1,300,sjh,
240,"['z', 'num_1', '1']",0.1,"(-125.00000000000003, -216.50635094610965)",0,8,8,13,,,3.772744199959561,z,1,0.1,240,sjh,
120,"['q', 'w', 'num_7', '7']",0.1,"(-125.00000000000003, 216.50635094610965)",0,9,9,7,,,1.8493977000471205,q,1,0.1,120,sjh,
300,"['x', 'c', 'num_3', '3']",0.15,"(125.00000000000003, -216.50635094610965)",0,10,10,17,,,1.6876968999858946,c,1,0.15,300,sjh,
180,"['a', 'num_4', '4']",0.1,"(-250, 0)",0,11,11,10,,,2.099279300076887,a,1,0.1,180,sjh,
180,"['a', 'num_4', '4']",0.15,"(-250, 0)",0,12,12,11,,,2.1848528999835253,a,1,0.15,180,sjh,
0,"['d', 'num_6', '6']",0.05,"(250, 0)",0,13,13,0,,,3.0745403000619262,d,1,0.05,0,sjh,
60,"['e', 'num_9', '9']",0.05,"(125.00000000000003, 216.50635094610965)",0,14,14,3,,,3.6448095000814646,e,1,0.05,60,sjh,
300,"['x', 'c', 'num_3', '3']",0.05,"(125.00000000000003, -216.50635094610965)",0,15,15,15,,,2.5197438998147845,d,0,0.05,300,sjh,
240,"['z', 'num_1', '1']",0.05,"(-125.00000000000003, -216.50635094610965)",0,16,16,12,,,2.285113000078127,a,0,0.05,240,sjh,
0,"['d', 'num_6', '6']",0.1,"(250, 0)",0,17,17,1,,,2.457527100108564,d,1,0.1,0,sjh,
0,"['d', 'num_6', '6']",0.1,"(250, 0)",1,0,18,1,,,2.183521199971437,d,1,0.1,0,sjh,
60,"['e', 'num_9', '9']",0.15,"(125.00000000000003, 216.50635094610965)",1,1,19,5,,,1.6809264000039548,e,1,0.15,60,sjh,
120,"['q', 'w', 'num_7', '7']",0.05,"(-125.00000000000003, 216.50635094610965)",1,2,20,6,,,4.613271800102666,c,0,0.05,120,sjh,
120,"['q', 'w', 'num_7', '7']",0.15,"(-125.00000000000003, 216.50635094610965)",1,3,21,8,,,1.068241300061345,q,1,0.15,120,sjh,
0,"['d', 'num_6', '6']",0.15,"(250, 0)",1,4,22,2,,,2.242084899917245,d,1,0.15,0,sjh,
300,"['x', 'c', 'num_3', '3']",0.15,"(125.00000000000003, -216.50635094610965)",1,5,23,17,,,3.433131699915976,c,1,0.15,300,sjh,
60,"['e', 'num_9', '9']",0.1,"(125.00000000000003, 216.50635094610965)",1,6,24,4,,,3.321348500205204,e,1,0.1,60,sjh,
300,"['x', 'c', 'num_3', '3']",0.1,"(125.00000000000003, -216.50635094610965)",1,7,25,16,,,2.172339800046757,c,1,0.1,300,sjh,
0,"['d', 'num_6', '6']",0.05,"(250, 0)",1,8,26,0,,,1.89849380007945,d,1,0.05,0,sjh,
180,"['a', 'num_4', '4']",0.1,"(-250, 0)",1,9,27,10,,,0.8766167999710888,a,1,0.1,180,sjh,
240,"['z', 'num_1', '1']",0.1,"(-125.00000000000003, -216.50635094610965)",1,10,28,13,,,1.4443972001317888,z,1,0.1,240,sjh,
120,"['q', 'w', 'num_7', '7']",0.1,"(-125.00000000000003, 216.50635094610965)",1,11,29,7,,,1.4811517999041826,a,0,0.1,120,sjh,
240,"['z', 'num_1', '1']",0.05,"(-125.00000000000003, -216.50635094610965)",1,12,30,12,,,6.747561699943617,z,1,0.05,240,sjh,
240,"['z', 'num_1', '1']",0.15,"(-125.00000000000003, -216.50635094610965)",1,13,31,14,,,2.6996832999866456,z,1,0.15,240,sjh,
300,"['x', 'c', 'num_3', '3']",0.05,"(125.00000000000003, -216.50635094610965)",1,14,32,15,,,2.104603299871087,a,0,0.05,300,sjh,
180,"['a', 'num_4', '4']",0.15,"(-250, 0)",1,15,33,11,,,1.5506780999712646,a,1,0.15,180,sjh,
180,"['a', 'num_4', '4']",0.05,"(-250, 0)",1,16,34,9,,,3.1008204000536352,a,1,0.05,180,sjh,
60,"['e', 'num_9', '9']",0.05,"(125.00000000000003, 216.50635094610965)",1,17,35,3,,,3.9058713000267744,q,0,0.05,60,sjh,
0,"['d', 'num_6', '6']",0.1,"(250, 0)",2,0,36,1,,,2.651413000188768,d,1,0.1,0,sjh,
60,"['e', 'num_9', '9']",0.05,"(125.00000000000003, 216.50635094610965)",2,1,37,3,,,3.3963953000493348,e,1,0.05,60,sjh,
300,"['x', 'c', 'num_3', '3']",0.15,"(125.00000000000003, -216.50635094610965)",2,2,38,17,,,1.5604542999062687,c,1,0.15,300,sjh,
240,"['z', 'num_1', '1']",0.05,"(-125.00000000000003, -216.50635094610965)",2,3,39,12,,,2.916848700027913,d,0,0.05,240,sjh,
120,"['q', 'w', 'num_7', '7']",0.05,"(-125.00000000000003, 216.50635094610965)",2,4,40,6,,,5.959041599882767,a,0,0.05,120,sjh,
0,"['d', 'num_6', '6']",0.15,"(250, 0)",2,5,41,2,,,1.264186599990353,d,1,0.15,0,sjh,
240,"['z', 'num_1', '1']",0.1,"(-125.00000000000003, -216.50635094610965)",2,6,42,13,,,2.590416199993342,z,1,0.1,240,sjh,
300,"['x', 'c', 'num_3', '3']",0.05,"(125.00000000000003, -216.50635094610965)",2,7,43,15,,,5.844374599866569,d,0,0.05,300,sjh,
300,"['x', 'c', 'num_3', '3']",0.1,"(125.00000000000003, -216.50635094610965)",2,8,44,16,,,2.123285499867052,c,1,0.1,300,sjh,
120,"['q', 'w', 'num_7', '7']",0.15,"(-125.00000000000003, 216.50635094610965)",2,9,45,8,,,0.93072189996019,q,1,0.15,120,sjh,
180,"['a', 'num_4', '4']",0.05,"(-250, 0)",2,10,46,9,,,0.8144227000884712,a,1,0.05,180,sjh,
240,"['z', 'num_1', '1']",0.15,"(-125.00000000000003, -216.50635094610965)",2,11,47,14,,,1.2095045000314713,z,1,0.15,240,sjh,
180,"['a', 'num_4', '4']",0.1,"(-250, 0)",2,12,48,10,,,1.6083029001019895,a,1,0.1,180,sjh,
60,"['e', 'num_9', '9']",0.15,"(125.00000000000003, 216.50635094610965)",2,13,49,5,,,1.1494098999537528,e,1,0.15,60,sjh,
60,"['e', 'num_9', '9']",0.1,"(125.00000000000003, 216.50635094610965)",2,14,50,4,,,3.0507976000662893,e,1,0.1,60,sjh,
120,"['q', 'w', 'num_7', '7']",0.1,"(-125.00000000000003, 216.50635094610965)",2,15,51,7,,,1.0749911000020802,q,1,0.1,120,sjh,
180,"['a', 'num_4', '4']",0.15,"(-250, 0)",2,16,52,11,,,0.6403566999360919,a,1,0.15,180,sjh,
0,"['d', 'num_6', '6']",0.05,"(250, 0)",2,17,53,0,,,2.3670367999002337,c,0,0.05,0,sjh,
